Folder: BL-15A1_XRD/resources/data

Note: README.md
# BL-15A1_XRD
ImageJ plugin for XRD data analysis at KEK-PF BL-15A1.  
Using this plugin, Dectris PILATUS images of synchrotron X-ray diffraction patterns can be loaded and analyzed.  
These codes still require cleaning-up, but were anyway put on public repository to meet the requests to inspect them. 

# How to use
Create a folder "[ImageJ root]/plugins/BL-15A1_XRD" and place BL-15A1_XRD.jar and XRDProps.config in it. Then restart ImageJ.

File: CeO2_XRD_start12_step16_num4_AlStop_00000_Stitched_vs2q.txt
 	2q	Intensity
1	-3.570	95.695
6	-3.250	46.585
11	-2.931	1.779
16	-2.611	1.809
21	-2.291	1.877
26	-1.972	1.744
31	-1.652	1.710
36	-1.333	1.778
41	-1.013	1.739
46	-0.693	1.347
51	-0.374	1.547
56	-0.054	2.464
61	0.266	77.137
66	0.585	1.658
71	0.905	1.712
76	1.224	1.725
81	1.544	1.722
86	1.864	1.598
91	2.183	1.928
96	2.503	2.087
101	2.823	64.662
106	3.142	127.141
111	3.462	172.036
116	3.781	208.918
121	4.101	245.299
126	4.421	261.607
131	4.740	273.069
136	5.060	288.188
141	5.380	303.520
146	5.699	313.220
151	6.019	316.868
156	6.339	324.432
161	6.658	329.376
166	6.978	334.431
171	7.297	335.685
176	7.617	342.922
181	7.937	351.233
186	8.256	350.063
191	8.576	347.608
196	8.896	345.993
201	9.215	343.784
206	9.535	338.324
211	9.854	334.452
216	10.174	330.944
221	10.494	325.854
226	10.813	324.451
231	11.133	318.889
236	11.453	318.060
241	11.772	314.376
246	12.092	314.326
251	12.411	311.232
256	12.731	307.075
261	13.051	305.832
266	13.370	301.206
271	13.690	299.986
276	14.010	295.297
281	14.329	290.750
286	14.649	287.405
291	14.968	283.714
296	15.288	281.920
301	15.608	279.487
306	15.927	276.860
311	16.247	273.155
316	16.567	267.641
321	16.886	262.153
326	17.206	256.650
331	17.525	250.376
336	17.845	245.175
341	18.165	239.691
346	18.484	234.878
351	18.804	228.761
356	19.124	223.315
361	19.443	219.635
366	19.763	218.075
371	20.083	215.803
376	20.402	211.828
381	20.722	211.590
386	21.041	211.144
391	21.361	216.787
396	21.681	233.949
401	22.000	324.786
406	22.320	6498.609
411	22.640	662.026
416	22.959	245.974
421	23.279	205.758
426	23.598	190.208
431	23.918	186.992
436	24.238	182.842
441	24.557	179.706
446	24.877	178.217
451	25.197	182.581
456	25.516	214.816
461	25.836	2713.655
466	26.155	246.459
471	26.475	175.361
476	26.795	163.480
481	27.114	160.348
486	27.434	157.964
491	27.754	154.920
496	28.073	157.407
501	28.393	153.425
506	28.712	151.178
511	29.032	147.688
516	29.352	147.577
521	29.671	145.105
526	29.991	143.849
531	30.311	141.893
536	30.630	140.587
541	30.950	140.206
546	31.270	139.745
551	31.589	140.507
556	31.909	140.418
561	32.228	140.147
566	32.548	138.400
571	32.868	135.511
576	33.187	135.323
581	33.507	133.864
586	33.827	131.799
591	34.146	131.225
596	34.466	130.875
601	34.785	130.831
606	35.105	131.075
611	35.425	133.556
616	35.744	137.246
621	36.064	151.312
626	36.384	182.535
631	36.703	612.775
636	37.023	1459.632
641	37.342	187.026
646	37.662	144.063
651	37.982	131.052
656	38.301	127.207
661	38.621	124.166
666	38.941	122.191
671	39.260	121.342
676	39.580	121.131
681	39.899	121.280
686	40.219	120.497
691	40.539	118.834
696	40.858	117.249
701	41.178	116.383
706	41.498	116.371
711	41.817	116.694
716	42.137	117.520
721	42.456	121.973
726	42.776	133.492
731	43.096	186.994
736	43.415	2777.071
741	43.735	339.536
746	44.055	144.654
751	44.374	122.109
756	44.694	115.764
761	45.014	117.482
766	45.333	195.879
771	45.653	300.973
776	45.972	112.103
781	46.292	103.795
786	46.612	101.053
791	46.931	99.649
796	47.251	98.247
801	47.571	97.345
806	47.890	96.544
811	48.210	96.372
816	48.529	94.181
821	48.849	93.246
826	49.169	91.584
831	49.488	90.235
836	49.808	89.550
841	50.128	88.533
846	50.447	88.868
851	50.767	87.436
856	51.086	86.839
861	51.406	86.402
866	51.726	85.967
871	52.045	88.955
876	52.365	88.727
881	52.685	95.702
886	53.004	360.705
891	53.324	127.663
896	53.643	88.917
901	53.963	84.306
906	54.283	84.064
911	54.602	81.761
916	54.922	81.047
921	55.242	81.252
926	55.561	81.010
931	55.881	81.133
936	56.200	81.881
941	56.520	80.355
946	56.840	80.324
951	57.159	81.571
956	57.479	83.791
961	57.799	97.434
966	58.118	373.551
971	58.438	267.138
976	58.758	93.901
981	59.077	84.474
986	59.397	86.748
991	59.716	152.757
996	60.036	417.126
1001	60.356	85.517
1006	60.675	74.195
1011	60.995	70.518
1016	61.315	68.909
1021	61.634	66.271
1026	61.954	65.922
1031	62.273	65.184
1036	62.593	64.628
1041	62.913	63.351
1046	63.232	62.205
1051	63.552	61.366
1056	63.872	62.505
1061	64.191	60.992
1066	64.511	60.416
1071	64.830	59.500
1076	65.150	60.548
1081	65.470	60.895
1086	65.789	68.077
1091	66.109	166.401
1096	66.429	313.688
1101	66.748	68.301
1106	67.068	56.153
1111	67.387	52.764
1116	67.707	51.036
1121	68.027	50.674
1126	68.346	49.013
1131	68.666	47.257
1136	68.986	46.198
1141	69.305	45.419
1146	69.625	45.370
1151	69.945	45.158
1156	70.264	46.798
1161	70.584	64.583
1166	70.903	584.842
1171	71.223	56.378
1176	71.543	43.203
1181	71.862	40.775
1186	72.182	38.599
1191	72.502	36.917
1196	72.821	36.008
1201	73.141	34.954
1206	73.460	34.077
1211	73.780	33.018
1216	74.100	32.302
1221	74.419	31.669
1226	74.739	30.866
1231	75.059	29.793
1236	75.378	29.541
1238	75.506	29.204

File: CeO2_XRD_start12_step16_num4_AlStop_00000_vs2q.txt
 	2q	Intensity
1	-3.570	95.679
3	-3.442	79.901
5	-3.314	58.868
7	-3.186	29.092
9	-3.058	3.871
11	-2.931	1.779
13	-2.803	2.005
15	-2.675	1.872
17	-2.547	1.865
19	-2.419	1.633
21	-2.291	1.878
23	-2.163	1.602
25	-2.035	1.682
27	-1.907	1.582
29	-1.780	1.942
31	-1.652	1.707
33	-1.524	1.713
35	-1.396	1.696
37	-1.268	1.811
39	-1.140	1.751
41	-1.012	1.738
43	-0.884	1.628
45	-0.756	1.939
47	-0.629	1.582
49	-0.501	1.660
51	-0.373	1.550
53	-0.245	1.176
55	-0.117	2.521
57	0.011	1.776
59	0.139	153.042
61	0.267	74.591
63	0.394	2.592
65	0.522	1.329
67	0.650	1.700
69	0.778	1.732
71	0.906	1.712
73	1.034	1.814
75	1.162	1.851
77	1.290	1.551
79	1.418	1.786
81	1.545	1.721
83	1.673	1.589
85	1.801	1.961
87	1.929	1.835
89	2.057	1.776
91	2.185	1.917
93	2.313	1.857
95	2.441	1.809
97	2.569	2.897
99	2.696	17.180
101	2.824	65.265
103	2.952	95.056
105	3.080	117.398
107	3.208	136.987
109	3.336	154.248
111	3.464	172.277
113	3.592	187.091
115	3.719	201.811
117	3.847	218.107
119	3.975	234.733
121	4.103	245.460
123	4.231	252.707
125	4.359	261.248
127	4.487	264.832
129	4.615	270.344
131	4.743	273.270
133	4.870	280.161
135	4.998	286.659
137	5.126	290.045
139	5.254	299.449
141	5.382	303.595
143	5.510	306.492
145	5.638	311.714
147	5.766	314.703
149	5.894	316.708
151	6.021	316.935
153	6.149	321.918
155	6.277	323.317
157	6.405	325.955
159	6.533	327.446
161	6.661	329.460
163	6.789	331.706
165	6.917	334.755
167	7.044	333.911
169	7.172	335.667
171	7.300	335.760
173	7.428	336.408
175	7.556	340.600
177	7.684	345.305
179	7.812	348.999
181	7.940	351.199
183	8.068	349.453
185	8.195	349.876
187	8.323	350.160
189	8.451	350.587
191	8.579	347.484
193	8.707	347.600
195	8.835	346.558
197	8.963	345.476
199	9.091	343.516
201	9.219	343.794
203	9.346	339.883
205	9.474	338.634
207	9.602	338.050
209	9.730	336.398
211	9.858	334.471
213	9.986	331.330
215	10.114	332.067
217	10.242	330.183
219	10.369	328.366
221	10.497	325.799
223	10.625	324.474
225	10.753	324.220
227	10.881	322.729
229	11.009	320.125
231	11.137	318.824
233	11.265	318.703
235	11.393	317.913
237	11.520	317.842
239	11.648	315.389
241	11.776	314.373
243	11.904	313.662
245	12.032	313.996
247	12.160	314.187
249	12.288	312.470
251	12.416	311.147
253	12.544	309.015
255	12.671	308.229
257	12.799	306.940
259	12.927	305.842
261	13.055	305.828
263	13.183	303.099
265	13.311	303.570
267	13.439	300.446
269	13.567	301.604
271	13.694	300.026
273	13.822	295.953
275	13.950	295.486
277	14.078	293.713
279	14.206	293.868
281	14.334	290.595
283	14.462	290.044
285	14.590	289.203
287	14.718	287.474
289	14.845	287.644
291	14.973	283.503
293	15.101	284.386
295	15.229	282.295
297	15.357	279.916
299	15.485	279.442
301	15.613	279.433
303	15.741	277.098
305	15.869	275.911
307	15.996	275.345
309	16.124	274.255
311	16.252	273.053
313	16.380	270.531
315	16.508	267.931
317	16.636	266.327
319	16.764	263.393
321	16.892	262.041
323	17.019	259.671
325	17.147	257.143
327	17.275	258.169
329	17.403	254.456
331	17.531	250.194
333	17.659	248.409
335	17.787	246.646
337	17.915	243.256
339	18.043	243.067
341	18.170	239.461
343	18.298	236.439
345	18.426	236.373
347	18.554	231.687
349	18.682	231.736
351	18.810	228.671
353	18.938	227.544
355	19.066	224.074
357	19.194	223.226
359	19.321	222.560
361	19.449	219.484
363	19.577	217.651
365	19.705	217.493
367	19.833	220.755
369	19.961	215.244
371	20.089	214.570
373	20.217	213.070
375	20.344	211.301
377	20.472	207.828
379	20.600	208.482
381	20.728	207.347
383	20.856	207.990
385	20.984	207.254
387	21.112	208.747
389	21.240	211.076
391	21.368	213.597
393	21.495	221.472
395	21.623	228.851
397	21.751	252.367
399	21.879	295.806
401	22.007	421.246
403	22.135	1035.379
405	22.263	9904.745
407	22.391	4954.834
409	22.519	728.551
411	22.646	353.289
413	22.774	263.332
415	22.902	226.204
417	23.030	207.140
419	23.158	196.451
421	23.286	188.386
423	23.414	182.226
425	23.542	177.650
427	23.669	174.986
429	23.797	174.026
431	23.925	173.269
433	24.053	169.686
435	24.181	168.023
437	24.309	166.937
439	24.437	165.190
441	24.565	163.452
443	24.693	163.098
445	24.820	161.855
447	24.948	162.395
449	25.076	163.061
451	25.204	166.809
453	25.332	178.099
455	25.460	202.315
457	25.588	309.475
459	25.716	1818.105
461	25.844	2128.197
463	25.971	343.123
465	26.099	197.384
467	26.227	166.943
469	26.355	155.316
471	26.483	149.730
473	26.611	145.342
475	26.739	142.374
477	26.867	142.025
479	26.994	139.667
481	27.122	137.689
483	27.250	137.066
485	27.378	135.212
487	27.506	135.330

File: CeO2_XRD_start12_step16_num4_AlStop_00001_vs2q.txt
 	2q	Intensity
1	12.430	259.001
3	12.558	280.974
5	12.686	280.592
7	12.814	280.063
9	12.942	280.921
11	13.069	279.299
13	13.197	276.340
15	13.325	275.471
17	13.453	274.619
19	13.581	273.686
21	13.709	272.899
23	13.837	271.548
25	13.965	271.005
27	14.093	270.843
29	14.220	269.055
31	14.348	268.150
33	14.476	263.830
35	14.604	265.017
37	14.732	264.268
39	14.860	264.538
41	14.988	264.274
43	15.116	263.336
45	15.244	263.312
47	15.371	260.244
49	15.499	261.296
51	15.627	261.140
53	15.755	259.279
55	15.883	260.427
57	16.011	259.141
59	16.139	258.809
61	16.267	259.204
63	16.394	257.987
65	16.522	255.114
67	16.650	253.735
69	16.778	252.737
71	16.906	251.395
73	17.034	249.661
75	17.162	247.593
77	17.290	247.308
79	17.418	243.860
81	17.545	242.937
83	17.673	240.834
85	17.801	238.827
87	17.929	239.260
89	18.057	236.884
91	18.185	233.975
93	18.313	232.625
95	18.441	231.738
97	18.569	228.651
99	18.696	228.192
101	18.824	226.616
103	18.952	224.373
105	19.080	223.094
107	19.208	222.429
109	19.336	219.801
111	19.464	220.002
113	19.592	219.752
115	19.719	216.894
117	19.847	218.180
119	19.975	216.292
121	20.103	215.180
123	20.231	215.080
125	20.359	212.074
127	20.487	211.045
129	20.615	212.456
131	20.743	211.048
133	20.870	208.538
135	20.998	210.341
137	21.126	212.187
139	21.254	212.243
141	21.382	217.811
143	21.510	221.859
145	21.638	229.815
147	21.766	242.903
149	21.894	271.396
151	22.021	338.578
153	22.149	558.550
155	22.277	2605.800
157	22.405	11688.558
159	22.533	2360.169
161	22.661	538.036
163	22.789	320.314
165	22.917	257.339
167	23.044	227.412
169	23.172	212.823
171	23.300	204.779
173	23.428	198.380
175	23.556	192.312
177	23.684	189.301
179	23.812	187.302
181	23.940	186.526
183	24.068	185.343
185	24.195	183.388
187	24.323	181.236
189	24.451	180.599
191	24.579	179.356
193	24.707	179.208
195	24.835	178.441
197	24.963	177.730
199	25.091	179.581
201	25.219	183.175
203	25.346	189.259
205	25.474	204.143
207	25.602	252.148
209	25.730	609.122
211	25.858	3204.193
213	25.986	1083.511
215	26.114	281.223
217	26.242	203.752
219	26.369	181.989
221	26.497	174.160
223	26.625	166.879
225	26.753	164.424
227	26.881	163.035
229	27.009	160.532
231	27.137	160.610
233	27.265	158.443
235	27.393	159.741
237	27.520	157.815
239	27.648	156.230
241	27.776	155.107
243	27.904	155.374
245	28.032	156.740
247	28.160	157.735
249	28.288	154.049
251	28.416	153.427
253	28.544	153.558
255	28.671	151.675
257	28.799	150.695
259	28.927	148.130
261	29.055	147.282
263	29.183	149.068
265	29.311	148.673
267	29.439	146.944
269	29.567	146.109
271	29.694	144.909
273	29.822	145.157
275	29.950	143.887
277	30.078	142.742
279	30.206	141.901
281	30.334	141.713
283	30.462	141.555
285	30.590	140.607
287	30.718	141.164
289	30.845	140.912
291	30.973	139.966
293	31.101	140.716
295	31.229	139.598
297	31.357	139.934
299	31.485	140.369
301	31.613	140.613
303	31.741	140.950
305	31.869	140.597
307	31.996	141.130
309	32.124	140.984
311	32.252	140.036
313	32.380	139.030
315	32.508	138.050
317	32.636	137.571
319	32.764	136.414
321	32.892	135.257
323	33.019	135.541
325	33.147	134.851
327	33.275	134.998
329	33.403	133.529
331	33.531	133.820
333	33.659	132.189
335	33.787	131.963
337	33.915	131.306
339	34.043	131.715
341	34.170	131.083
343	34.298	131.756
345	34.426	131.520
347	34.554	130.167
349	34.682	130.654
351	34.810	130.768
353	34.938	131.455
355	35.066	131.073
357	35.194	132.210
359	35.321	132.103
361	35.449	134.358
363	35.577	136.233
365	35.705	137.196
367	35.833	139.428
369	35.961	146.351
371	36.089	153.915
373	36.217	165.243
375	36.344	188.927
377	36.472	252.264
379	36.600	502.401
381	36.728	3517.745
383	36.856	4169.814
385	36.984	611.062
387	37.112	257.356
389	37.240	184.500
391	37.368	155.975
393	37.495	142.113
395	37.623	134.971
397	37.751	130.480
399	37.879	126.866
401	38.007	123.833
403	38.135	122.793
405	38.263	121.247
407	38.391	120.410
409	38.519	118.473
411	38.646	116.835
413	38.774	116.088
415	38.902	114.696
417	39.030	115.186
419	39.158	113.723
421	39.286	112.465
423	39.414	113.191
425	39.542	112.247
427	39.669	111.317
429	39.797	112.499
431	39.925	112.731
433	40.053	111.170
435	40.181	109.426
437	40.309	109.067
439	40.437	108.345
441	40.565	108.123
443	40.693	107.415
445	40.820	106.742
447	40.948	105.848
449	41.076	104.798
451	41.204	104.037
453	41.332	103.459
455	41.460	103.417
457	41.588	105.393
459	41.716	103.125
461	41.844	103.401
463	41.971	103.814
465	42.099	104.210
467	42.227	104.633
469	42.355	107.133
471	42.483	109.626
473	42.611	112.979
475	42.739	119.329
477	42.867	132.636
479	42.994	159.771
481	43.122	232.994
483	43.250	640.955
485	43.378	4409.959
487	43.506	1498.548

File: CeO2_XRD_start12_step16_num4_AlStop_00002_vs2q.txt
 	2q	Intensity
1	28.430	143.000
3	28.558	138.466
5	28.686	134.777
7	28.814	134.118
9	28.942	133.652
11	29.069	133.444
13	29.197	132.258
15	29.325	132.110
17	29.453	131.029
19	29.581	131.926
21	29.709	131.351
23	29.837	130.622
25	29.965	131.337
27	30.093	130.166
29	30.220	129.754
31	30.348	129.769
33	30.476	130.104
35	30.604	129.366
37	30.732	129.364
39	30.860	129.886
41	30.988	129.934
43	31.116	130.780
45	31.244	130.470
47	31.371	130.606
49	31.499	129.728
51	31.627	129.786
53	31.755	130.169
55	31.883	129.833
57	32.011	131.106
59	32.139	131.951
61	32.267	132.846
63	32.394	131.984
65	32.522	130.849
67	32.650	129.803
69	32.778	131.564
71	32.906	130.866
73	33.034	131.333
75	33.162	128.809
77	33.290	128.552
79	33.418	127.783
81	33.545	128.101
83	33.673	128.715
85	33.801	127.333
87	33.929	128.262
89	34.057	127.220
91	34.185	127.600
93	34.313	128.775
95	34.441	128.596
97	34.569	127.773
99	34.696	128.060
101	34.824	129.353
103	34.952	129.473
105	35.080	130.934
107	35.208	130.993
109	35.336	131.173
111	35.464	132.719
113	35.592	134.269
115	35.719	135.658
117	35.847	138.957
119	35.975	143.936
121	36.103	150.444
123	36.231	158.999
125	36.359	173.811
127	36.487	207.902
129	36.615	305.829
131	36.743	878.493
133	36.870	6395.233
135	36.998	1914.366
137	37.126	398.327
139	37.254	223.859
141	37.382	174.683
143	37.510	154.755
145	37.638	146.404
147	37.766	137.347
149	37.894	134.524
151	38.021	130.119
153	38.149	127.889
155	38.277	127.719
157	38.405	125.916
159	38.533	124.394
161	38.661	124.200
163	38.789	122.525
165	38.917	122.368
167	39.044	122.231
169	39.172	122.103
171	39.300	120.867
173	39.428	120.396
175	39.556	121.143
177	39.684	120.161
179	39.812	120.657
181	39.940	121.800
183	40.068	122.031
185	40.195	120.712
187	40.323	119.726
189	40.451	118.774
191	40.579	118.943
193	40.707	117.884
195	40.835	117.240
197	40.963	117.219
199	41.091	117.262
201	41.219	116.618
203	41.346	117.108
205	41.474	116.309
207	41.602	116.718
209	41.730	116.791
211	41.858	117.085
213	41.986	117.778
215	42.114	117.401
217	42.242	118.090
219	42.369	119.712
221	42.497	122.399
223	42.625	124.538
225	42.753	131.575
227	42.881	140.128
229	43.009	160.731
231	43.137	204.179
233	43.265	354.154
235	43.393	1813.490
237	43.520	4391.099
239	43.648	785.160
241	43.776	257.965
243	43.904	174.511
245	44.032	147.129
247	44.160	134.254
249	44.288	125.880
251	44.416	120.662
253	44.544	117.586
255	44.671	116.054
257	44.799	114.895
259	44.927	116.972
261	45.055	118.046
263	45.183	129.594
265	45.311	167.004
267	45.439	557.335
269	45.567	791.422
271	45.694	195.128
273	45.822	127.891
275	45.950	113.516
277	46.078	107.638
279	46.206	104.648
281	46.334	103.378
283	46.462	102.904
285	46.590	100.886
287	46.718	101.519
289	46.845	99.722
291	46.973	99.440
293	47.101	98.486
295	47.229	97.937
297	47.357	98.188
299	47.485	98.265
301	47.613	96.932
303	47.741	97.725
305	47.869	96.303
307	47.996	97.669
309	48.124	98.291
311	48.252	95.542
313	48.380	94.231
315	48.508	94.503
317	48.636	92.749
319	48.764	93.255
321	48.892	93.156
323	49.019	93.149
325	49.147	91.727
327	49.275	91.219
329	49.403	90.594
331	49.531	90.052
333	49.659	89.985
335	49.787	89.511
337	49.915	89.188
339	50.043	88.881
341	50.170	88.066
343	50.298	88.580
345	50.426	88.905
347	50.554	87.908
349	50.682	87.577
351	50.810	87.874
353	50.938	87.141
355	51.066	86.624
357	51.194	86.994
359	51.321	86.414
361	51.449	86.230
363	51.577	86.021
365	51.705	85.667
367	51.833	87.917
369	51.961	87.757
371	52.089	88.563
373	52.217	87.901
375	52.344	89.348
377	52.472	89.713
379	52.600	94.664
381	52.728	107.749
383	52.856	180.126
385	52.984	864.910
387	53.112	329.930
389	53.240	119.049
391	53.368	93.902
393	53.495	86.930
395	53.623	84.936
397	53.751	82.699
399	53.879	80.836
401	54.007	79.707
403	54.135	79.471
405	54.263	79.097
407	54.391	78.610
409	54.519	77.028
411	54.646	77.596
413	54.774	77.410
415	54.902	77.027
417	55.030	76.374
419	55.158	76.703
421	55.286	76.423
423	55.414	75.267
425	55.542	74.241
427	55.669	75.572
429	55.797	75.541
431	55.925	76.162
433	56.053	75.423
435	56.181	72.842
437	56.309	73.872
439	56.437	73.052
441	56.565	73.886
443	56.693	73.040
445	56.820	73.711
447	56.948	74.016
449	57.076	73.278
451	57.204	74.044
453	57.332	74.871
455	57.460	76.933
457	57.588	80.300
459	57.716	88.432
461	57.844	105.331
463	57.971	176.199
465	58.099	797.008
467	58.227	1090.929
469	58.355	214.377
471	58.483	110.518
473	58.611	87.271
475	58.739	79.818
477	58.867	75.694
479	58.994	72.592
481	59.122	72.864
483	59.250	74.492
485	59.378	77.119
487	59.506	87.570

File: CeO2_XRD_start12_step16_num4_AlStop_00003_vs2q.txt
 	2q	Intensity
1	44.430	114.000
3	44.558	106.524
5	44.686	103.943
7	44.814	103.287
9	44.942	103.283
11	45.069	104.437
13	45.197	109.254
15	45.325	123.042
17	45.453	205.210
19	45.581	867.750
21	45.709	398.543
23	45.837	139.429
25	45.965	110.402
27	46.093	101.567
29	46.220	98.187
31	46.348	95.586
33	46.476	93.759
35	46.604	93.738
37	46.732	92.602
39	46.860	92.132
41	46.988	91.999
43	47.116	92.284
45	47.244	91.780
47	47.371	91.756
49	47.499	91.557
51	47.627	91.440
53	47.755	91.876
55	47.883	90.499
57	48.011	90.871
59	48.139	91.921
61	48.267	92.523
63	48.394	91.236
65	48.522	89.511
67	48.650	89.193
69	48.778	88.483
71	48.906	88.501
73	49.034	87.388
75	49.162	88.577
77	49.290	86.926
79	49.418	86.960
81	49.545	87.403
83	49.673	86.316
85	49.801	85.789
87	49.929	86.121
89	50.057	86.702
91	50.185	86.300
93	50.313	86.250
95	50.441	87.039
97	50.569	85.847
99	50.696	87.086
101	50.824	85.710
103	50.952	87.037
105	51.080	87.012
107	51.208	86.489
109	51.336	86.506
111	51.464	86.014
113	51.592	85.714
115	51.719	86.048
117	51.847	84.864
119	51.975	87.860
121	52.103	88.888
123	52.231	88.074
125	52.359	88.788
127	52.487	90.087
129	52.615	92.248
131	52.743	99.722
133	52.870	119.984
135	52.998	319.359
137	53.126	814.369
139	53.254	199.012
141	53.382	108.676
143	53.510	93.807
145	53.638	89.049
147	53.766	86.747
149	53.894	84.578
151	54.021	84.033
153	54.149	82.949
155	54.277	84.083
157	54.405	82.776
159	54.533	82.188
161	54.661	81.785
163	54.789	80.973
165	54.917	80.988
167	55.044	81.585
169	55.172	81.279
171	55.300	81.392
173	55.428	81.181
175	55.556	81.051
177	55.684	80.276
179	55.812	80.024
181	55.940	81.915
183	56.068	82.780
185	56.195	81.935
187	56.323	80.854
189	56.451	80.067
191	56.579	80.297
193	56.707	80.838
195	56.835	80.280
197	56.963	81.262
199	57.091	81.528
201	57.219	82.240
203	57.346	82.939
205	57.474	83.668
207	57.602	87.724
209	57.730	92.859
211	57.858	104.211
213	57.986	139.039
215	58.114	342.200
217	58.242	1413.055
219	58.369	631.389
221	58.497	167.420
223	58.625	110.105
225	58.753	94.151
227	58.881	89.120
229	59.009	84.836
231	59.137	84.321
233	59.265	84.019
235	59.393	86.597
237	59.520	92.443
239	59.648	113.557
241	59.776	248.381
243	59.904	851.778
245	60.032	430.523
247	60.160	134.325
249	60.288	91.988
251	60.416	81.836
253	60.544	77.291
255	60.671	74.261
257	60.799	72.435
259	60.927	71.043
261	61.055	70.073
263	61.183	69.293
265	61.311	68.913
267	61.439	68.054
269	61.567	66.664
271	61.694	67.058
273	61.822	65.280
275	61.950	65.931
277	62.078	65.516
279	62.206	65.332
281	62.334	64.721
283	62.462	64.456
285	62.590	64.653
287	62.718	64.027
289	62.845	63.882
291	62.973	63.608
293	63.101	63.116
295	63.229	62.182
297	63.357	63.152
299	63.485	61.607
301	63.613	62.166
303	63.741	62.203
305	63.869	62.526
307	63.996	62.085
309	64.124	61.917
311	64.252	61.134
313	64.380	59.833
315	64.508	60.420
317	64.636	59.754
319	64.764	59.178
321	64.892	59.893
323	65.019	60.154
325	65.147	60.555
327	65.275	60.114
329	65.403	60.472
331	65.531	61.506
333	65.659	63.697
335	65.787	67.920
337	65.915	77.543
339	66.043	110.258
341	66.170	306.476
343	66.298	909.618
345	66.426	319.769
347	66.554	106.420
349	66.682	74.120
351	66.810	63.832
353	66.938	59.315
355	67.066	56.149
357	67.194	54.746
359	67.321	52.752
361	67.449	52.282
363	67.577	52.279
365	67.705	51.044
367	67.833	50.872
369	67.961	50.701
371	68.089	50.145
373	68.217	49.104
375	68.344	49.029
377	68.472	48.042
379	68.600	47.972
381	68.728	47.084
383	68.856	46.658
385	68.984	46.194
387	69.112	46.615
389	69.240	45.594
391	69.368	45.330
393	69.495	45.659
395	69.623	45.384
397	69.751	45.394
399	69.879	45.342
401	70.007	45.256
403	70.135	46.600
405	70.263	46.762
407	70.391	49.913
409	70.519	56.688
411	70.646	78.544
413	70.774	227.541
415	70.902	589.630
417	71.030	154.338
419	71.158	66.841
421	71.286	51.530
423	71.414	45.510
425	71.542	43.215
427	71.669	41.766
429	71.797	40.903
431	71.925	40.675
433	72.053	38.913
435	72.181	38.611
437	72.309	37.177
439	72.437	37.627
441	72.565	36.319
443	72.693	36.393
445	72.820	36.014
447	72.948	35.380
449	73.076	35.129
451	73.204	34.662
453	73.332	33.926
455	73.460	34.079
457	73.588	33.263
459	73.716	33.226
461	73.844	32.708
463	73.971	31.826
465	74.099	32.305
467	74.227	31.204
469	74.355	31.530
471	74.483	31.561
473	74.611	30.520
475	74.739	30.868
477	74.867	29.967
479	74.994	30.220
481	75.122	29.715
483	75.250	29.814
485	75.378	29.541
487	75.506	29.204